Bruker Nano GmbH, Germany
Quantax 70

Date: 12/30/1899
Real time: 53565
Life time: 46711
Pulse density: 0

Primary energy: 15
Take off angle: 25
Tilt angle: 0
Azimut angle: 0

Detector type: XFlash 430
Window type: slew AP3.3
Detector thickness: 0.45
Si dead layer:0.029

Calibration, lin.: 10.001
Calibration, abs.: -474.597
Mn FWHM: 131.231
Fano factor: 0.103
Channels: 2034

Energy Counts
-0.4746    0
-0.4646    0
-0.4546    0
-0.4446    0
-0.4346    0
-0.4246    0
-0.4146    0
-0.4046    0
-0.3946    0
-0.3846    0
-0.3746    0
-0.3646    0
-0.3546    0
-0.3446    0
-0.3346    0
-0.3246    0
-0.3146    0
-0.3046    0
-0.2946    0
-0.2846    0
-0.2746    0
-0.2646    0
-0.2546    0
-0.2446    0
-0.2346    0
-0.2246    0
-0.2146    0
-0.2046    0
-0.1946    0
-0.1846    0
-0.1746    0
-0.1646    0
-0.1546    0
-0.1446    0
-0.1346    0
-0.1246    0
-0.1146    0
-0.1046    1
-0.0946    2
-0.0846   16
-0.0746   51
-0.0646  192
-0.0546  450
-0.0446  927
-0.0346 1983
-0.0246 3057
-0.0146 4516
-0.0046 5485
 0.0055 5718
 0.0155 4977
 0.0255 3832
 0.0355 2506
 0.0455 1384
 0.0555  655
 0.0655  258
 0.0755   93
 0.0855   17
 0.0955    8
 0.1055    0
 0.1155  245
 0.1255  221
 0.1355   67
 0.1455   45
 0.1555   36
 0.1655   51
 0.1755   43
 0.1855   39
 0.1955   53
 0.2055   68
 0.2155   77
 0.2255   96
 0.2355  113
 0.2455  152
 0.2555  170
 0.2655  226
 0.2755  200
 0.2855  221
 0.2955  172
 0.3055  134
 0.3155  104
 0.3255   67
 0.3355   46
 0.3455   32
 0.3555   29
 0.3655   21
 0.3755   32
 0.3855   23
 0.3955   29
 0.4055   24
 0.4155   38
 0.4255   32
 0.4355   45
 0.4455   40
 0.4555   39
 0.4655   47
 0.4755   56
 0.4855   43
 0.4955   77
 0.5055   64
 0.5155   83
 0.5255   86
 0.5355   82
 0.5455   78
 0.5555   62
 0.5655   69
 0.5755   70
 0.5855   84
 0.5955   57
 0.6055   65
 0.6155   64
 0.6255   67
 0.6355   68
 0.6455   69
 0.6555   69
 0.6655   70
 0.6755   91
 0.6855  109
 0.6955   96
 0.7055   98
 0.7155  108
 0.7255  108
 0.7355  102
 0.7455  121
 0.7555  133
 0.7655  114
 0.7755  121
 0.7855  133
 0.7955  105
 0.8055  121
 0.8155  125
 0.8255  148
 0.8355  141
 0.8455  118
 0.8555  147
 0.8655  145
 0.8755  178
 0.8855  153
 0.8955  163
 0.9055  198
 0.9155  188
 0.9255  167
 0.9355  161
 0.9455  187
 0.9555  180
 0.9655  186
 0.9755  182
 0.9855  184
 0.9955  163
 1.0056  193
 1.0156  218
 1.0256  210
 1.0356  199
 1.0456  214
 1.0556  208
 1.0656  223
 1.0756  202
 1.0856  213
 1.0956  224
 1.1056  227
 1.1156  251
 1.1256  206
 1.1356  204
 1.1456  198
 1.1556  211
 1.1656  221
 1.1756  210
 1.1856  242
 1.1956  231
 1.2056  237
 1.2156  224
 1.2256  220
 1.2356  211
 1.2456  231
 1.2556  253
 1.2656  224
 1.2756  266
 1.2856  246
 1.2956  299
 1.3056  255
 1.3156  267
 1.3256  322
 1.3356  339
 1.3456  362
 1.3556  437
 1.3656  534
 1.3756  586
 1.3856  633
 1.3956  679
 1.4056  708
 1.4156  620
 1.4256  570
 1.4356  504
 1.4456  477
 1.4556  397
 1.4656  396
 1.4756  363
 1.4856  352
 1.4956  345
 1.5056  279
 1.5156  342
 1.5256  301
 1.5356  294
 1.5456  309
 1.5556  279
 1.5656  274
 1.5756  284
 1.5856  252
 1.5956  263
 1.6056  289
 1.6156  269
 1.6256  273
 1.6356  277
 1.6456  308
 1.6556  345
 1.6656  355
 1.6756  391
 1.6856  432
 1.6956  538
 1.7056  735
 1.7156 1022
 1.7256 1516
 1.7356 2052
 1.7456 2969
 1.7556 3981
 1.7656 4930
 1.7756 5898
 1.7856 6483
 1.7956 7059
 1.8056 7054
 1.8156 6647
 1.8256 6205
 1.8356 5479
 1.8456 4804
 1.8556 4046
 1.8656 3353
 1.8756 2655
 1.8856 2071
 1.8956 1566
 1.9056 1115
 1.9156  743
 1.9256  573
 1.9356  377
 1.9456  238
 1.9556  179
 1.9656  166
 1.9756  185
 1.9856  168
 1.9956  169
 2.0057  177
 2.0157  192
 2.0257  220
 2.0357  242
 2.0457  250
 2.0557  245
 2.0657  252
 2.0757  214
 2.0857  196
 2.0957  182
 2.1057  177
 2.1157  171
 2.1257  130
 2.1357  127
 2.1457  122
 2.1557  104
 2.1657  125
 2.1757  119
 2.1857  111
 2.1957  104
 2.2057  132
 2.2157  122
 2.2257  117
 2.2357  111
 2.2457  117
 2.2557  121
 2.2657  120
 2.2757  129
 2.2857  124
 2.2957  126
 2.3057  130
 2.3157  166
 2.3257  150
 2.3357  168
 2.3457  130
 2.3557  147
 2.3657  148
 2.3757  143
 2.3857  134
 2.3957  116
 2.4057  130
 2.4157  129
 2.4257  120
 2.4357  129
 2.4457   92
 2.4557  115
 2.4657  119
 2.4757  127
 2.4857  109
 2.4957  118
 2.5057  127
 2.5157  108
 2.5257  115
 2.5357  105
 2.5457  116
 2.5557  101
 2.5657   97
 2.5757  137
 2.5857  112
 2.5957  104
 2.6057  119
 2.6157  115
 2.6257  123
 2.6357  107
 2.6457  108
 2.6557  131
 2.6657  118
 2.6757  121
 2.6857  122
 2.6957  124
 2.7057  121
 2.7157  118
 2.7257  104
 2.7357  102
 2.7457  111
 2.7557  110
 2.7657  121
 2.7757  114
 2.7857  136
 2.7957  104
 2.8057  105
 2.8157  117
 2.8257  125
 2.8357  110
 2.8457  117
 2.8557  112
 2.8657  117
 2.8757  118
 2.8857  143
 2.8957  113
 2.9057  115
 2.9157  116
 2.9257  104
 2.9357   96
 2.9457  117
 2.9557  119
 2.9657  105
 2.9757  112
 2.9857  121
 2.9957  109
 3.0058  125
 3.0158  118
 3.0258  125
 3.0358  104
 3.0458  131
 3.0558  108
 3.0658  124
 3.0758  133
 3.0858  116
 3.0958  122
 3.1058  112
 3.1158  129
 3.1258  105
 3.1358  128
 3.1458  125
 3.1558  125
 3.1658  119
 3.1758  131
 3.1858  123
 3.1958  120
 3.2058  105
 3.2158  132
 3.2258  127
 3.2358  122
 3.2458  128
 3.2558   95
 3.2658  102
 3.2758  118
 3.2858  114
 3.2958  138
 3.3058  122
 3.3158  110
 3.3258  121
 3.3358  123
 3.3458  110
 3.3558  140
 3.3658  110
 3.3758  131
 3.3858  104
 3.3958  115
 3.4058  141
 3.4158  125
 3.4258  130
 3.4358  135
 3.4458  134
 3.4558  128
 3.4658  104
 3.4758  127
 3.4858  130
 3.4958  113
 3.5058  128
 3.5158  119
 3.5258  141
 3.5358  121
 3.5458  117
 3.5558  127
 3.5658  118
 3.5758  131
 3.5858  114
 3.5958  124
 3.6058  132
 3.6158  135
 3.6258  121
 3.6358  110
 3.6458  119
 3.6558  121
 3.6658  145
 3.6758  125
 3.6858  129
 3.6958  116
 3.7058  119
 3.7158  129
 3.7258  112
 3.7358  142
 3.7458   98
 3.7558  111
 3.7658  119
 3.7758  125
 3.7858  122
 3.7958  117
 3.8058  132
 3.8158  134
 3.8258  111
 3.8358  107
 3.8458  122
 3.8558  129
 3.8658  113
 3.8758  128
 3.8858  134
 3.8958  137
 3.9058  132
 3.9158  126
 3.9258  109
 3.9358  120
 3.9458  131
 3.9558  123
 3.9658  136
 3.9758  131
 3.9858  135
 3.9958  142
 4.0059  112
 4.0159  119
 4.0259  129
 4.0359  122
 4.0459  131
 4.0559  132
 4.0659  114
 4.0759  107
 4.0859  105
 4.0959  126
 4.1059  112
 4.1159  120
 4.1259  110
 4.1359  128
 4.1459  128
 4.1559  111
 4.1659  130
 4.1759  123
 4.1859  118
 4.1959  109
 4.2059  121
 4.2159  124
 4.2259  116
 4.2359  125
 4.2459   99
 4.2559  103
 4.2659  127
 4.2759  135
 4.2859  131
 4.2959  132
 4.3059  110
 4.3159  142
 4.3259  129
 4.3359  131
 4.3459  117
 4.3559  104
 4.3659  102
 4.3759   97
 4.3859  113
 4.3959  112
 4.4059  129
 4.4159  118
 4.4259  123
 4.4359  130
 4.4459  119
 4.4559  112
 4.4659  120
 4.4759  104
 4.4859  121
 4.4959  126
 4.5059  130
 4.5159   97
 4.5259  118
 4.5359  105
 4.5459  114
 4.5559  134
 4.5659   95
 4.5759  131
 4.5859  102
 4.5959  112
 4.6059   88
 4.6159  109
 4.6259  105
 4.6359  127
 4.6459  113
 4.6559  104
 4.6659  119
 4.6759  101
 4.6859   97
 4.6959  100
 4.7059  105
 4.7159  109
 4.7259   99
 4.7359  118
 4.7459  124
 4.7559  112
 4.7659  124
 4.7759  121
 4.7859  102
 4.7959  130
 4.8059  106
 4.8159  102
 4.8259  108
 4.8359  107
 4.8459   95
 4.8559  106
 4.8659  113
 4.8759  102
 4.8859  119
 4.8959  119
 4.9059  100
 4.9159  104
 4.9259  135
 4.9359  118
 4.9459   80
 4.9559   99
 4.9659   96
 4.9759   98
 4.9859  100
 4.9959   97
  5.006  108
  5.016  126
  5.026  108
  5.036  135
  5.046  108
  5.056   98
  5.066   92
  5.076  113
  5.086  109
  5.096  106
  5.106  110
  5.116  118
  5.126  113
  5.136  102
  5.146  102
  5.156  107
  5.166   91
  5.176  106
  5.186   99
  5.196  121
  5.206  112
  5.216  113
  5.226  109
  5.236  114
  5.246  107
  5.256  110
  5.266   97
  5.276  114
  5.286  102
  5.296  116
  5.306  106
  5.316  106
  5.326   97
  5.336  104
  5.346  118
  5.356  109
  5.366   96
  5.376  102
  5.386   94
  5.396   92
  5.406  104
  5.416   95
  5.426  103
  5.436   98
  5.446  102
  5.456  112
  5.466  109
  5.476  110
  5.486   99
  5.496  107
  5.506   98
  5.516   89
  5.526  100
  5.536   85
  5.546   82
  5.556  107
  5.566   94
  5.576   96
  5.586   95
  5.596  111
  5.606  110
  5.616   86
  5.626  106
  5.636   90
  5.646   94
  5.656  116
  5.666   89
  5.676   86
  5.686   86
  5.696   94
  5.706   96
  5.716  114
  5.726  107
  5.736  111
  5.746   97
  5.756   83
  5.766  110
  5.776   85
  5.786  104
  5.796   82
  5.806  103
  5.816   96
  5.826   94
  5.836  100
  5.846   99
  5.856   88
  5.866   84
  5.876  110
  5.886  100
  5.896  120
  5.906   88
  5.916   92
  5.926   90
  5.936  100
  5.946   87
  5.956   98
  5.966  112
  5.976   85
  5.986   91
  5.996  104
 6.0061  103
 6.0161   87
 6.0261   88
 6.0361   79
 6.0461  104
 6.0561   92
 6.0661   99
 6.0761   84
 6.0861   96
 6.0961   91
 6.1061  103
 6.1161   89
 6.1261   60
 6.1361   86
 6.1461   87
 6.1561  107
 6.1661   91
 6.1761  104
 6.1861   90
 6.1961   96
 6.2061   87
 6.2161   84
 6.2261   91
 6.2361   86
 6.2461   86
 6.2561   97
 6.2661   77
 6.2761   88
 6.2861   83
 6.2961   84
 6.3061   82
 6.3161   98
 6.3261   83
 6.3361  105
 6.3461   64
 6.3561   75
 6.3661   87
 6.3761   77
 6.3861   81
 6.3961   75
 6.4061   76
 6.4161   97
 6.4261   97
 6.4361   98
 6.4461  101
 6.4561   91
 6.4661   94
 6.4761   90
 6.4861   97
 6.4961   85
 6.5061   82
 6.5161   99
 6.5261   87
 6.5361   84
 6.5461   76
 6.5561   83
 6.5661   88
 6.5761   77
 6.5861   81
 6.5961  100
 6.6061   94
 6.6161   60
 6.6261   90
 6.6361   81
 6.6461  108
 6.6561   92
 6.6661   92
 6.6761   84
 6.6861   79
 6.6961   60
 6.7061   87
 6.7161   64
 6.7261   87
 6.7361   92
 6.7461  101
 6.7561   78
 6.7661   89
 6.7761   97
 6.7861   70
 6.7961   94
 6.8061   81
 6.8161   96
 6.8261   73
 6.8361   84
 6.8461   84
 6.8561   61
 6.8661   69
 6.8761   74
 6.8861   80
 6.8961   85
 6.9061   83
 6.9161   65
 6.9261   92
 6.9361   83
 6.9461   57
 6.9561   84
 6.9661   51
 6.9761   86
 6.9861   88
 6.9961   65
 7.0062   80
 7.0162   71
 7.0262   75
 7.0362   93
 7.0462   82
 7.0562   80
 7.0662   72
 7.0762   83
 7.0862   74
 7.0962   90
 7.1062   79
 7.1162   88
 7.1262   70
 7.1362   84
 7.1462   65
 7.1562   73
 7.1662   72
 7.1762   77
 7.1862   70
 7.1962   82
 7.2062   82
 7.2162   72
 7.2262   71
 7.2362   78
 7.2462   75
 7.2562   75
 7.2662   83
 7.2762   56
 7.2862   73
 7.2962   81
 7.3062   87
 7.3162   61
 7.3262   71
 7.3362   80
 7.3462   70
 7.3562   77
 7.3662   81
 7.3762   93
 7.3862   87
 7.3962   84
 7.4062   84
 7.4162   88
 7.4262   85
 7.4362   91
 7.4462   83
 7.4562  102
 7.4662   96
 7.4762   96
 7.4862   94
 7.4962   82
 7.5062   74
 7.5162  101
 7.5262   95
 7.5362   75
 7.5462   72
 7.5562   76
 7.5662   82
 7.5762   86
 7.5862   67
 7.5962   82
 7.6062   87
 7.6162   74
 7.6262   72
 7.6362   63
 7.6462   48
 7.6562   70
 7.6662   78
 7.6762   69
 7.6862   63
 7.6962   60
 7.7062   68
 7.7162   79
 7.7262   71
 7.7362   83
 7.7462   63
 7.7562   70
 7.7662   69
 7.7762   60
 7.7862   79
 7.7962   55
 7.8062   72
 7.8162   64
 7.8262   71
 7.8362   71
 7.8462   56
 7.8562   67
 7.8662   65
 7.8762   55
 7.8862   69
 7.8962   49
 7.9062   66
 7.9162   68
 7.9262   67
 7.9362   64
 7.9462   67
 7.9562   66
 7.9662   66
 7.9762   62
 7.9862   69
 7.9962   91
 8.0063   71
 8.0163   92
 8.0263   84
 8.0363   95
 8.0463   77
 8.0563   76
 8.0663  101
 8.0763   94
 8.0863  102
 8.0963   94
 8.1063   97
 8.1163   99
 8.1263  101
 8.1363   94
 8.1463   84
 8.1563   84
 8.1663   82
 8.1763   78
 8.1863   63
 8.1963   76
 8.2063   81
 8.2163   77
 8.2263   80
 8.2363   73
 8.2463   59
 8.2563   73
 8.2663   76
 8.2763   87
 8.2863   84
 8.2963   84
 8.3063  123
 8.3163  129
 8.3263  151
 8.3363  184
 8.3463  220
 8.3563  216
 8.3663  241
 8.3763  318
 8.3863  331
 8.3963  366
 8.4063  387
 8.4163  423
 8.4263  449
 8.4363  475
 8.4463  468
 8.4563  458
 8.4663  451
 8.4763  485
 8.4863  433
 8.4963  387
 8.5063  336
 8.5163  359
 8.5263  299
 8.5363  238
 8.5463  202
 8.5563  193
 8.5663  170
 8.5763  133
 8.5863  100
 8.5963  104
 8.6063   91
 8.6163   84
 8.6263   83
 8.6363   63
 8.6463   72
 8.6563   66
 8.6663   71
 8.6763   61
 8.6863   47
 8.6963   59
 8.7063   57
 8.7163   41
 8.7263   54
 8.7363   55
 8.7463   44
 8.7563   63
 8.7663   53
 8.7763   58
 8.7863   74
 8.7963   77
 8.8063   54
 8.8163   57
 8.8263   56
 8.8363   71
 8.8463   54
 8.8563   49
 8.8663   71
 8.8763   65
 8.8863   63
 8.8963   53
 8.9063   57
 8.9163   66
 8.9263   53
 8.9363   59
 8.9463   61
 8.9563   45
 8.9663   53
 8.9763   48
 8.9863   58
 8.9963   67
 9.0064   52
 9.0164   45
 9.0264   58
 9.0364   54
 9.0464   56
 9.0564   48
 9.0664   53
 9.0764   48
 9.0864   49
 9.0964   49
 9.1064   50
 9.1164   44
 9.1264   52
 9.1364   49
 9.1464   57
 9.1564   42
 9.1664   56
 9.1764   62
 9.1864   52
 9.1964   57
 9.2064   62
 9.2164   49
 9.2264   55
 9.2364   44
 9.2464   53
 9.2564   63
 9.2664   50
 9.2764   54
 9.2864   57
 9.2964   50
 9.3064   52
 9.3164   52
 9.3264   50
 9.3364   46
 9.3464   64
 9.3564   52
 9.3664   58
 9.3764   42
 9.3864   45
 9.3964   48
 9.4064   71
 9.4164   48
 9.4264   58
 9.4364   54
 9.4464   51
 9.4564   46
 9.4664   65
 9.4764   43
 9.4864   42
 9.4964   62
 9.5064   50
 9.5164   56
 9.5264   52
 9.5364   55
 9.5464   49
 9.5564   54
 9.5664   63
 9.5764   69
 9.5864   70
 9.5964   77
 9.6064   70
 9.6164   79
 9.6264   96
 9.6364   80
 9.6464   91
 9.6564  104
 9.6664  111
 9.6764  111
 9.6864  122
 9.6964  150
 9.7064  134
 9.7164  156
 9.7264  170
 9.7364  154
 9.7464  145
 9.7564  163
 9.7664  152
 9.7764  142
 9.7864  139
 9.7964  123
 9.8064  106
 9.8164  118
 9.8264   99
 9.8364  117
 9.8464   83
 9.8564   81
 9.8664   96
 9.8764   84
 9.8864   77
 9.8964   86
 9.9064   68
 9.9164   77
 9.9264   86
 9.9364   82
 9.9464   99
 9.9564   96
 9.9664   95
 9.9764  117
 9.9864  102
 9.9964  124
10.0065  109
10.0165  121
10.0265  141
10.0365   93
10.0465  108
10.0565   91
10.0665  109
10.0765   93
10.0865   81
10.0965   97
10.1065   87
10.1165   76
10.1265   61
10.1365   55
10.1465   58
10.1565   56
10.1665   56
10.1765   58
10.1865   63
10.1965   51
10.2065   50
10.2165   40
10.2265   48
10.2365   29
10.2465   40
10.2565   52
10.2665   36
10.2765   47
10.2865   30
10.2965   26
10.3065   40
10.3165   35
10.3265   35
10.3365   35
10.3465   44
10.3565   29
10.3665   35
10.3765   44
10.3865   42
10.3965   31
10.4065   36
10.4165   31
10.4265   36
10.4365   42
10.4465   31
10.4565   26
10.4665   28
10.4765   40
10.4865   33
10.4965   40
10.5065   35
10.5165   42
10.5265   30
10.5365   29
10.5465   37
10.5565   39
10.5665   37
10.5765   42
10.5865   34
10.5965   26
10.6065   39
10.6165   37
10.6265   27
10.6365   30
10.6465   31
10.6565   33
10.6665   36
10.6765   32
10.6865   38
10.6965   25
10.7065   30
10.7165   26
10.7265   29
10.7365   27
10.7465   29
10.7565   27
10.7665   32
10.7765   18
10.7865   30
10.7965   28
10.8065   28
10.8165   38
10.8265   31
10.8365   28
10.8465   28
10.8565   37
10.8665   33
10.8765   32
10.8865   30
10.8965   35
10.9065   25
10.9165   36
10.9265   26
10.9365   37
10.9465   36
10.9565   28
10.9665   29
10.9765   33
10.9865   27
10.9965   31
11.0066   29
11.0166   31
11.0266   14
11.0366   24
11.0466   25
11.0566   27
11.0666   34
11.0766   37
11.0866   22
11.0966   31
11.1066   35
11.1166   32
11.1266   23
11.1366   28
11.1466   36
11.1566   29
11.1666   36
11.1766   28
11.1866   23
11.1966   32
11.2066   33
11.2166   41
11.2266   35
11.2366   35
11.2466   31
11.2566   33
11.2666   37
11.2766   40
11.2866   38
11.2966   39
11.3066   42
11.3166   46
11.3266   46
11.3366   41
11.3466   44
11.3566   38
11.3666   54
11.3766   52
11.3866   53
11.3966   28
11.4066   52
11.4166   39
11.4266   36
11.4366   34
11.4466   32
11.4566   41
11.4666   38
11.4766   31
11.4866   23
11.4966   30
11.5066   24
11.5166   32
11.5266   27
11.5366   26
11.5466   27
11.5566   31
11.5666   39
11.5766   29
11.5866   29
11.5966   19
11.6066   22
11.6166   25
11.6266   28
11.6366   29
11.6466   22
11.6566   38
11.6666   40
11.6766   16
11.6866   25
11.6966   41
11.7066   32
11.7166   32
11.7266   28
11.7366   27
11.7466   24
11.7566   27
11.7666   26
11.7766   29
11.7866   25
11.7966   26
11.8066   26
11.8166   25
11.8266   16
11.8366   30
11.8466   27
11.8566   19
11.8666   26
11.8766   16
11.8866   22
11.8966   21
11.9066   22
11.9166   24
11.9266   20
11.9366   21
11.9466   20
11.9566   17
11.9666   20
11.9766   20
11.9866   20
11.9966   23
12.0067   23
12.0167   21
12.0267   22
12.0367   14
12.0467   25
12.0567   18
12.0667   17
12.0767   14
12.0867   18
12.0967   17
12.1067   19
12.1167   19
12.1267   21
12.1367   20
12.1467   16
12.1567   19
12.1667   19
12.1767   25
12.1867   29
12.1967   24
12.2067   22
12.2167   22
12.2267   25
12.2367   18
12.2467   23
12.2567   22
12.2667   26
12.2767   15
12.2867   13
12.2967   21
12.3067   16
12.3167   14
12.3267   19
12.3367   18
12.3467   15
12.3567   24
12.3667   26
12.3767   19
12.3867   23
12.3967   26
12.4067   27
12.4167   16
12.4267   14
12.4367   21
12.4467   15
12.4567   23
12.4667   14
12.4767   19
12.4867   20
12.4967   12
12.5067   25
12.5167   21
12.5267   12
12.5367   18
12.5467   25
12.5567   20
12.5667   16
12.5767   25
12.5867   22
12.5967   15
12.6067   15
12.6167   21
12.6267   12
12.6367   18
12.6467   12
12.6567   25
12.6667    7
12.6767   12
12.6867   16
12.6967   16
12.7067   19
12.7167    9
12.7267   18
12.7367   10
12.7467   20
12.7567   11
12.7667   24
12.7767   20
12.7867   18
12.7967   16
12.8067   12
12.8167   19
12.8267   16
12.8367   12
12.8467   17
12.8567   18
12.8667   12
12.8767   15
12.8867   19
12.8967   13
12.9067   15
12.9167   12
12.9267   13
12.9367   17
12.9467   16
12.9567   14
12.9667   17
12.9767    8
12.9867   17
12.9967   16
13.0068    7
13.0168   17
13.0268    9
13.0368   12
13.0468   10
13.0568    9
13.0668   13
13.0768   12
13.0868   15
13.0968    4
13.1068    9
13.1168    9
13.1268    8
13.1368   16
13.1468   11
13.1568   13
13.1668   10
13.1768   20
13.1868   10
13.1968    7
13.2068   12
13.2168   15
13.2268   12
13.2368   14
13.2468   12
13.2568   13
13.2668   13
13.2768   13
13.2868   15
13.2968   14
13.3068   17
13.3168   10
13.3268   13
13.3368    9
13.3468    6
13.3568   14
13.3668   11
13.3768    6
13.3868   16
13.3968   12
13.4068   19
13.4168   12
13.4268   10
13.4368   12
13.4468    9
13.4568   12
13.4668   13
13.4768   23
13.4868   14
13.4968    8
13.5068    8
13.5168   12
13.5268    6
13.5368   13
13.5468   12
13.5568    6
13.5668   10
13.5768    9
13.5868   11
13.5968   12
13.6068   18
13.6168   19
13.6268   11
13.6368   11
13.6468    6
13.6568   10
13.6668   11
13.6768   20
13.6868   12
13.6968    7
13.7068   10
13.7168    6
13.7268   12
13.7368   12
13.7468    7
13.7568    5
13.7668   11
13.7768    6
13.7868   11
13.7968   15
13.8068    6
13.8168    9
13.8268   14
13.8368   15
13.8468    5
13.8568    7
13.8668   14
13.8768    6
13.8868   10
13.8968    8
13.9068   11
13.9168    5
13.9268    6
13.9368    6
13.9468    8
13.9568    9
13.9668    8
13.9768    7
13.9868    6
13.9968   10
14.0069    6
14.0169   10
14.0269   10
14.0369   10
14.0469   10
14.0569    2
14.0669   11
14.0769    7
14.0869   10
14.0969    8
14.1069    6
14.1169    5
14.1269    8
14.1369    5
14.1469    7
14.1569    7
14.1669    8
14.1769    3
14.1869    6
14.1969    6
14.2069    8
14.2169    8
14.2269    3
14.2369    4
14.2469    5
14.2569    5
14.2669    7
14.2769    4
14.2869    4
14.2969    5
14.3069    2
14.3169    5
14.3269    6
14.3369    9
14.3469    6
14.3569    5
14.3669    7
14.3769    5
14.3869    4
14.3969    5
14.4069    3
14.4169    3
14.4269    1
14.4369    6
14.4469    1
14.4569    5
14.4669    5
14.4769    5
14.4869    5
14.4969    7
14.5069    5
14.5169    4
14.5269    3
14.5369    2
14.5469    2
14.5569    6
14.5669    4
14.5769    2
14.5869    5
14.5969    3
14.6069    3
14.6169    5
14.6269    3
14.6369    0
14.6469    2
14.6569    7
14.6669    3
14.6769    1
14.6869    3
14.6969    2
14.7069    2
14.7169    3
14.7269    1
14.7369    4
14.7469    3
14.7569    3
14.7669    1
14.7769    1
14.7869    1
14.7969    2
14.8069    5
14.8169    3
14.8269    3
14.8369    7
14.8469    1
14.8569    3
14.8669    2
14.8769    3
14.8869    2
14.8969    2
14.9069    1
14.9169    1
14.9269    5
14.9369    1
14.9469    1
14.9569    2
14.9669    0
14.9769    2
14.9869    0
14.9969    2
 15.007    2
 15.017    0
 15.027    2
 15.037    1
 15.047    0
 15.057    1
 15.067    1
 15.077    1
 15.087    2
 15.097    4
 15.107    2
 15.117    0
 15.127    0
 15.137    1
 15.147    0
 15.157    0
 15.167    0
 15.177    0
 15.187    0
 15.197    0
 15.207    0
 15.217    0
 15.227    0
 15.237    0
 15.247    0
 15.257    0
 15.267    0
 15.277    0
 15.287    0
 15.297    0
 15.307    0
 15.317    0
 15.327    0
 15.337    0
 15.347    0
 15.357    0
 15.367    0
 15.377    0
 15.387    0
 15.397    0
 15.407    0
 15.417    0
 15.427    0
 15.437    0
 15.447    0
 15.457    0
 15.467    0
 15.477    0
 15.487    0
 15.497    0
 15.507    0
 15.517    0
 15.527    0
 15.537    0
 15.547    0
 15.557    0
 15.567    0
 15.577    0
 15.587    0
 15.597    0
 15.607    0
 15.617    0
 15.627    0
 15.637    0
 15.647    0
 15.657    0
 15.667    0
 15.677    0
 15.687    0
 15.697    0
 15.707    0
 15.717    0
 15.727    0
 15.737    0
 15.747    0
 15.757    0
 15.767    0
 15.777    0
 15.787    0
 15.797    0
 15.807    0
 15.817    0
 15.827    0
 15.837    0
 15.847    0
 15.857    0
 15.867    0
 15.877    0
 15.887    0
 15.897    0
 15.907    0
 15.917    0
 15.927    0
 15.937    0
 15.947    0
 15.957    0
 15.967    0
 15.977    0
 15.987    0
 15.997    0
16.0071    0
16.0171    0
16.0271    0
16.0371    0
16.0471    1
16.0571    0
16.0671    0
16.0771    0
16.0871    0
16.0971    0
16.1071    0
16.1171    0
16.1271    0
16.1371    0
16.1471    0
16.1571    0
16.1671    0
16.1771    0
16.1871    0
16.1971    0
16.2071    0
16.2171    0
16.2271    0
16.2371    0
16.2471    0
16.2571    0
16.2671    0
16.2771    0
16.2871    0
16.2971    0
16.3071    0
16.3171    0
16.3271    0
16.3371    0
16.3471    0
16.3571    0
16.3671    0
16.3771    0
16.3871    0
16.3971    0
16.4071    0
16.4171    0
16.4271    0
16.4371    0
16.4471    0
16.4571    0
16.4671    0
16.4771    0
16.4871    0
16.4971    0
16.5071    0
16.5171    0
16.5271    0
16.5371    0
16.5471    0
16.5571    0
16.5671    0
16.5771    0
16.5871    0
16.5971    0
16.6071    0
16.6171    0
16.6271    0
16.6371    0
16.6471    0
16.6571    0
16.6671    0
16.6771    0
16.6871    0
16.6971    0
16.7071    0
16.7171    0
16.7271    0
16.7371    0
16.7471    0
16.7571    0
16.7671    0
16.7771    0
16.7871    0
16.7971    0
16.8071    0
16.8171    0
16.8271    0
16.8371    0
16.8471    0
16.8571    0
16.8671    0
16.8771    0
16.8871    0
16.8971    0
16.9071    0
16.9171    0
16.9271    1
16.9371    0
16.9471    0
16.9571    1
16.9671    0
16.9771    0
16.9871    0
16.9971    0
17.0072    0
17.0172    0
17.0272    0
17.0372    0
17.0472    0
17.0572    0
17.0672    0
17.0772    0
17.0872    0
17.0972    0
17.1072    0
17.1172    0
17.1272    0
17.1372    0
17.1472    0
17.1572    0
17.1672    0
17.1772    0
17.1872    0
17.1972    0
17.2072    0
17.2172    0
17.2272    0
17.2372    0
17.2472    0
17.2572    0
17.2672    0
17.2772    0
17.2872    0
17.2972    0
17.3072    0
17.3172    0
17.3272    0
17.3372    0
17.3472    0
17.3572    0
17.3672    0
17.3772    0
17.3872    0
17.3972    0
17.4072    0
17.4172    0
17.4272    1
17.4372    0
17.4472    0
17.4572    0
17.4672    0
17.4772    0
17.4872    0
17.4972    0
17.5072    0
17.5172    0
17.5272    0
17.5372    0
17.5472    0
17.5572    0
17.5672    0
17.5772    0
17.5872    0
17.5972    0
17.6072    0
17.6172    0
17.6272    0
17.6372    0
17.6472    0
17.6572    0
17.6672    0
17.6772    0
17.6872    0
17.6972    0
17.7072    0
17.7172    0
17.7272    0
17.7372    0
17.7472    0
17.7572    0
17.7672    0
17.7772    0
17.7872    0
17.7972    0
17.8072    0
17.8172    0
17.8272    0
17.8372    0
17.8472    0
17.8572    0
17.8672    0
17.8772    0
17.8872    0
17.8972    0
17.9072    0
17.9172    0
17.9272    0
17.9372    0
17.9472    0
17.9572    0
17.9672    0
17.9772    0
17.9872    0
17.9972    0
18.0073    0
18.0173    0
18.0273    0
18.0373    0
18.0473    0
18.0573    0
18.0673    0
18.0773    0
18.0873    0
18.0973    0
18.1073    0
18.1173    0
18.1273    0
18.1373    0
18.1473    0
18.1573    0
18.1673    0
18.1773    0
18.1873    0
18.1973    0
18.2073    0
18.2173    0
18.2273    0
18.2373    0
18.2473    0
18.2573    0
18.2673    0
18.2773    0
18.2873    0
18.2973    0
18.3073    0
18.3173    0
18.3273    0
18.3373    0
18.3473    0
18.3573    0
18.3673    0
18.3773    1
18.3873    0
18.3973    0
18.4073    0
18.4173    0
18.4273    0
18.4373    0
18.4473    0
18.4573    0
18.4673    0
18.4773    0
18.4873    0
18.4973    0
18.5073    0
18.5173    0
18.5273    0
18.5373    0
18.5473    0
18.5573    0
18.5673    0
18.5773    0
18.5873    0
18.5973    0
18.6073    0
18.6173    0
18.6273    0
18.6373    0
18.6473    0
18.6573    0
18.6673    0
18.6773    0
18.6873    0
18.6973    0
18.7073    0
18.7173    0
18.7273    0
18.7373    0
18.7473    0
18.7573    0
18.7673    0
18.7773    0
18.7873    0
18.7973    0
18.8073    0
18.8173    0
18.8273    0
18.8373    0
18.8473    0
18.8573    0
18.8673    0
18.8773    0
18.8873    0
18.8973    0
18.9073    0
18.9173    0
18.9273    0
18.9373    0
18.9473    0
18.9573    0
18.9673    0
18.9773    0
18.9873    0
18.9973    0
19.0074    0
19.0174    0
19.0274    0
19.0374    0
19.0474    0
19.0574    0
19.0674    0
19.0774    0
19.0874    0
19.0974    0
19.1074    0
19.1174    0
19.1274    0
19.1374    0
19.1474    0
19.1574    0
19.1674    0
19.1774    0
19.1874    0
19.1974    0
19.2074    0
19.2174    0
19.2274    0
19.2374    0
19.2474    0
19.2574    0
19.2674    0
19.2774    0
19.2874    0
19.2974    0
19.3074    0
19.3174    0
19.3274    0
19.3374    0
19.3474    0
19.3574    0
19.3674    0
19.3774    0
19.3874    0
19.3974    0
19.4074    0
19.4174    0
19.4274    0
19.4374    0
19.4474    0
19.4574    0
19.4674    0
19.4774    0
19.4874    0
19.4974    0
19.5074    0
19.5174    0
19.5274    0
19.5374    0
19.5474    0
19.5574    0
19.5674    0
19.5774    0
19.5874    0
19.5974    0
19.6074    0
19.6174    0
19.6274    0
19.6374    0
19.6474    0
19.6574    0
19.6674    0
19.6774    0
19.6874    0
19.6974    0
19.7074    0
19.7174    0
19.7274    0
19.7374    0
19.7474    0
19.7574    0
19.7674    0
19.7774    0
19.7874    0
19.7974    0
19.8074    0
19.8174    0
19.8274    0
19.8374    0
19.8474    0
19.8574    1
